STUDYID,USUBJID,AGE,TRTSDT,TRTEDT,TRTSDTM,TRT01A,TRTAN,SAFFL,ITTFL,PPFL,EOSDT
STUDY1,01,55,2024-01-01,2024-02-01,2024-01-01 00:00:00,DrugA,1,Y,Y,Y,2024-02-01
STUDY1,02,60,2024-01-05,2024-01-20,2024-01-05 00:00:00,Placebo,2,Y,Y,Y,2024-01-20
