STUDYID,USUBJID,AESEQ,AETERM,AESTDTC,AESTTM,AEENDTC,AEENTM,AETOXGR
STUDY1,01,1,Headache,2024-01-02,08:00,2024-01-03,09:00,1
STUDY1,01,2,Nausea,2024-01-05,10:00,2024-01-06,11:00,2
STUDY1,02,1,Fatigue,2024-01-08,09:00,2024-01-09,12:00,1
STUDY1,02,2,Dizziness,2024-02,08:30,2024-02-05,13:00,3
