STUDYID,USUBJID,LBSEQ,LBTEST,LBTESTCD,LBCAT,LBDTC,LBTM,LBSTRESN,ANRIND
STUDY1,01,1,Alanine Aminotransferase,ALT,SCREEN,2023-12-29,07:30,35,NORMAL
STUDY1,01,2,Alanine Aminotransferase,ALT,DAY 1,2024-01-02,08:00,42,HIGH
STUDY1,01,3,Aspartate Aminotransferase,AST,DAY 5,2024-01-06,09:00,37,NORMAL
STUDY1,02,1,Alanine Aminotransferase,ALT,SCREEN,2023-12-30,07:45,28,NORMAL
STUDY1,02,2,Alanine Aminotransferase,ALT,DAY 3,2024-01-04,08:15,30,NORMAL
STUDY1,02,3,Aspartate Aminotransferase,AST,DAY 7,2024-01-08,09:30,49,HIGH
