STUDYID,USUBJID,QSSEQ,QSTEST,QSTESTCD,QSCAT,QSDTC,QSTM,QSSTRESN,VISIT
STUDY1,01,1,Quality of Life Total Score,QOL,SCREEN,2023-12-28,07:00,60,Screening
STUDY1,01,2,Quality of Life Total Score,QOL,DAY 1,2024-01-02,09:00,70,Week 1
STUDY1,01,3,Physical Function Score,PF,DAY 7,2024-01-08,09:30,55,Week 2
STUDY1,02,1,Quality of Life Total Score,QOL,SCREEN,2023-12-30,07:15,58,Screening
STUDY1,02,2,Quality of Life Total Score,QOL,DAY 1,2024-01-05,08:45,63,Week 1
STUDY1,02,3,Physical Function Score,PF,DAY 7,2024-01-10,09:30,52,Week 2
